Temperature (K)	Pressure (MPa)	Therm. Cond. (W/m*K)
111.430	0.553	0.18470
111.331	11.637	0.19720
111.483	22.691	0.20770
111.328	34.113	0.21750
111.205	44.929	0.22620
111.081	56.736	0.23530
110.962	68.644	0.24370
133.874	0.315	0.01480
134.867	0.764	0.15190
134.906	11.709	0.16700
134.752	22.962	0.18000
134.872	34.177	0.19130
134.713	45.576	0.20190
134.823	56.748	0.21140
134.643	67.926	0.22030
144.330	0.357	0.01590
144.024	0.650	0.01660
153.922	0.429	0.01700
154.234	0.731	0.01770
153.919	1.082	0.01860
154.911	1.597	0.12270
154.745	6.754	0.13270
154.976	14.577	0.14460
155.097	25.314	0.15840
155.214	35.994	0.17020
155.063	46.630	0.18130
154.875	56.924	0.19100
154.708	67.033	0.19980
164.385	0.446	0.01810
164.059	0.935	0.01900
163.617	1.657	0.02140
174.541	0.406	0.01910
174.157	1.015	0.02020
173.754	1.751	0.02200
173.252	2.461	0.02560
174.692	2.644	0.09420
174.610	4.614	0.10060
174.751	12.708	0.11800
174.995	19.722	0.12920
175.148	26.452	0.13830
175.004	33.796	0.14760
175.218	41.284	0.15590
175.099	48.146	0.16310
174.935	55.058	0.17030
174.834	61.639	0.17640
175.000	68.370	0.18230
184.665	0.752	0.02060
184.844	1.508	0.02200
184.439	2.252	0.02400
184.145	2.884	0.02700
183.857	3.450	0.03320
199.304	1.013	0.02270
198.607	1.531	0.02330
198.700	2.670	0.02590
198.365	3.520	0.02880
198.363	4.156	0.03250
198.100	4.569	0.03650
198.138	4.861	0.04050
197.697	5.049	0.04510
197.626	5.173	0.04930
197.637	5.230	0.05150
197.537	5.329	0.05460
197.640	5.408	0.05840
197.864	5.500	0.06220
197.960	5.693	0.06940
198.181	5.965	0.07200
198.182	6.571	0.07410
198.136	7.445	0.07760
198.394	8.898	0.08270
198.758	11.179	0.08910
198.640	14.450	0.09680
199.026	19.219	0.10600
200.169	26.071	0.11510
200.430	35.264	0.12740
200.230	47.242	0.14130
200.558	62.619	0.15670
200.555	69.419	0.16350
214.229	1.068	0.02430
214.546	1.747	0.02530
214.110	3.036	0.02760
213.843	4.165	0.03070
214.155	5.022	0.03410
214.174	5.811	0.03850
213.909	6.372	0.04280
213.563	6.929	0.04850
213.239	7.357	0.05330
213.342	7.760	0.05720
213.495	8.255	0.06090
213.436	8.697	0.06400
213.605	9.310	0.06700
214.274	10.069	0.06970
214.386	11.106	0.07350
214.475	12.419	0.07760
215.019	14.257	0.08190
215.367	16.765	0.08730
215.152	20.273	0.09440
215.458	24.888	0.10210
215.191	31.249	0.11160
214.914	39.616	0.12230
215.174	48.551	0.13230
215.416	57.649	0.14150
215.167	66.102	0.14990
215.146	69.271	0.15310
234.032	0.978	0.02640
235.091	3.146	0.02940
234.443	5.136	0.03360
234.917	7.132	0.03940
233.946	9.427	0.05040
234.177	11.472	0.05920
234.489	13.602	0.06620
234.368	15.751	0.07230
234.156	17.693	0.07700
233.996	20.535	0.08280
234.454	23.411	0.08780
234.323	26.932	0.09360
234.387	30.364	0.09900
234.158	34.090	0.10360
234.589	37.547	0.10800
234.483	41.020	0.11230
234.423	44.352	0.11640
234.300	47.930	0.12030
234.276	51.243	0.12400
234.676	55.102	0.12780
234.636	58.416	0.13110
234.566	61.886	0.13440
234.491	65.384	0.13790
234.492	68.759	0.14120
254.900	1.019	0.02890
255.589	2.715	0.03080
254.985	4.725	0.03370
254.668	6.554	0.03710
255.612	6.789	0.03770
254.994	8.786	0.04280
255.303	11.185	0.04940
254.923	13.271	0.05560
255.348	15.399	0.06120
255.114	17.521	0.06630
254.901	20.353	0.07240
255.262	23.423	0.07780
254.972	26.850	0.08340
254.910	30.399	0.08880
254.840	33.908	0.09370
254.834	37.374	0.09810
255.712	40.729	0.10220
255.337	44.632	0.10630
255.228	48.089	0.11020
255.159	51.673	0.11390
255.275	56.207	0.11840
254.844	59.686	0.12210
255.191	63.257	0.12560
255.135	66.476	0.12870
274.936	1.015	0.03140
275.113	2.496	0.03280
274.767	4.448	0.03500
274.636	6.507	0.03810
276.448	8.404	0.04130
275.848	10.555	0.04550
275.900	12.675	0.05010
276.042	14.654	0.05450
275.731	16.955	0.05940
275.513	19.154	0.06370
275.548	21.325	0.06770
275.376	23.532	0.07150
275.171	26.986	0.07700
275.086	30.488	0.08210
275.696	33.989	0.08680
275.223	37.530	0.09010
275.114	41.152	0.09550
275.014	44.660	0.09950
274.960	48.079	0.10300
275.416	51.733	0.10660
275.391	55.235	0.11020
275.294	58.748	0.11360
275.235	62.501	0.11720
275.175	65.837	0.12010
275.654	69.253	0.12310
295.744	0.988	0.03380
295.507	1.949	0.03460
295.202	3.913	0.03640
295.471	5.978	0.03870
294.956	8.081	0.04150
294.539	10.369	0.04500
294.243	12.173	0.04810
294.691	14.298	0.05170
294.370	16.381	0.05530
294.082	18.660	0.05940
293.899	21.433	0.06410
294.496	25.128	0.06960
294.508	28.716	0.07480
295.407	32.485	0.07940
295.265	36.136	0.08370
295.194	39.443	0.08750
295.160	42.827	0.09120
295.074	46.333	0.09500
295.067	50.000	0.09880
294.925	53.683	0.10230
294.439	57.061	0.10560
294.387	60.577	0.10890
294.307	63.953	0.11200
294.908	67.321	0.11500
308.077	1.076	0.03580
308.321	2.676	0.03720
308.535	4.743	0.03920
308.770	6.733	0.04140
308.465	8.877	0.04410
308.457	11.039	0.04700
308.190	13.148	0.05020
307.983	15.186	0.05320
308.627	17.278	0.05640
308.425	19.464	0.05990
308.247	22.419	0.06420
308.149	26.028	0.06940
308.931	29.477	0.07410
308.562	33.098	0.07830
308.422	36.520	0.08210
308.215	39.911	0.08610
308.821	43.082	0.08930
308.702	46.727	0.09310
308.620	50.126	0.09640
308.585	53.476	0.09970
308.454	57.009	0.10300
308.395	60.531	0.10630
308.364	64.078	0.10930
312.206	66.676	0.11060
308.467	67.415	0.11250
111.827	0.561	0.18427
111.655	0.556	0.18476
111.255	0.551	0.18475
110.983	0.546	0.18512
111.762	11.644	0.19681
111.363	11.641	0.19679
111.215	11.635	0.19754
110.985	11.630	0.19758
111.768	22.698	0.20704
111.688	22.693	0.20762
111.301	22.688	0.20775
111.173	22.682	0.20846
111.613	34.119	0.21681
111.472	34.117	0.21779
111.231	34.112	0.21761
110.997	34.109	0.21796
111.508	44.939	0.22569
111.347	44.932	0.22602
111.101	44.926	0.22624
110.863	44.920	0.22667
111.433	56.744	0.23494
111.181	56.740	0.23517
110.963	56.735	0.23542
110.745	56.726	0.23554
111.218	68.635	0.24325
111.104	68.639	0.24368
110.894	68.647	0.24381
110.631	68.659	0.24405
134.645	0.316	0.01483
134.119	0.316	0.01475
133.606	0.315	0.01475
133.127	0.314	0.01471
135.369	0.778	0.15136
135.054	0.772	0.15181
134.663	0.761	0.15203
134.383	0.745	0.15245
135.395	11.718	0.16643
135.072	11.715	0.16687
134.724	11.709	0.16708
134.433	11.694	0.16755
135.255	22.964	0.17951
134.855	22.963	0.18009
134.596	22.961	0.17996
134.300	22.959	0.18038
135.304	34.181	0.19082
134.983	34.180	0.19106
134.717	34.177	0.19153
134.482	34.172	0.19175
135.055	45.585	0.20144
134.801	45.577	0.20170
134.607	45.574	0.20224
134.390	45.564	0.20225
135.242	56.761	0.21085
134.920	56.753	0.21114
134.722	56.743	0.21186
134.408	56.735	0.21176
135.053	67.925	0.21996
134.764	67.926	0.22006
134.496	67.926	0.22036
134.259	67.928	0.22067
145.151	0.357	0.01597
144.549	0.357	0.01590
144.034	0.357	0.01584
143.587	0.357	0.01584
144.746	0.650	0.01658
144.258	0.650	0.01659
143.690	0.650	0.01660
143.403	0.650	0.01652
154.710	0.429	0.01708
154.129	0.429	0.01717
153.687	0.429	0.01697
153.161	0.429	0.01691
155.000	0.731	0.01781
154.460	0.731	0.01773
153.983	0.731	0.01771
153.493	0.731	0.01762
154.611	1.082	0.01876
154.165	1.082	0.01866
153.622	1.082	0.01864
153.277	1.082	0.01852
155.515	1.600	0.12179
155.080	1.599	0.12260
154.711	1.598	0.12306
154.339	1.595	0.12344
155.315	6.757	0.13193
154.878	6.755	0.13263
154.565	6.754	0.13294
154.223	6.757	0.13318
155.484	14.577	0.14399
155.132	14.576	0.14444
154.797	14.575	0.14487
154.491	14.579	0.14520
155.595	25.316	0.15793
155.239	25.314	0.15829
154.966	25.310	0.15867
154.586	25.318	0.15889
155.724	36.001	0.16952
155.402	36.001	0.16996
154.976	35.997	0.17056
154.755	35.978	0.17093
155.563	46.637	0.18080
155.228	46.631	0.18094
154.890	46.626	0.18148
154.570	46.626	0.18185
155.419	56.930	0.19060
154.980	56.927	0.19079
154.681	56.921	0.19118
154.420	56.919	0.19154
155.151	67.027	0.19946
154.884	67.028	0.19942
154.564	67.035	0.20013
154.234	67.043	0.20037
165.249	0.446	0.01821
164.627	0.446	0.01811
164.008	0.446	0.01807
163.654	0.446	0.01803
164.789	0.935	0.01912
164.336	0.935	0.01912
163.737	0.935	0.01903
163.372	0.935	0.01891
164.151	1.657	0.02141
163.770	1.657	0.02144
163.435	1.657	0.02147
163.111	1.657	0.02141
175.467	0.406	0.01922
174.780	0.406	0.01909
174.244	0.406	0.01911
173.672	0.406	0.01908
174.946	1.015	0.02029
174.370	1.015	0.02015
173.887	1.015	0.02015
173.424	1.015	0.02010
174.393	1.751	0.02207
173.984	1.751	0.02203
173.504	1.751	0.02216
173.135	1.752	0.02194
173.762	2.459	0.02567
173.415	2.460	0.02579
173.064	2.461	0.02585
172.766	2.462	0.02528
175.226	4.616	0.09977
174.785	4.616	0.10043
174.407	4.615	0.10107
174.021	4.616	0.10129
175.360	12.710	0.11736
175.020	12.708	0.11769
174.534	12.705	0.11818
174.088	12.712	0.11862
175.653	19.724	0.12832
175.178	19.722	0.12901
174.793	19.720	0.12957
174.357	19.724	0.12980
175.719	26.457	0.13772
175.380	26.455	0.13811
174.924	26.450	0.13861
174.570	26.446	0.13879
175.558	33.801	0.14701
175.163	33.796	0.14743
174.813	33.792	0.14773
174.483	33.794	0.14827
175.820	41.291	0.15522
175.338	41.288	0.15573
175.061	41.285	0.15608
174.654	41.276	0.15653
175.705	48.148	0.16260
175.305	48.149	0.16291
174.788	48.142	0.16332
174.596	48.145	0.16348
175.547	55.061	0.16959
175.051	55.062	0.16993
174.704	55.058	0.17064
174.439	55.051	0.17091
175.386	61.637	0.17583
175.017	61.642	0.17636
174.659	61.637	0.17657
174.273	61.641	0.17702
175.485	68.363	0.18195
175.204	68.360	0.18224
174.804	68.375	0.18235
174.506	68.379	0.18264
185.421	0.752	0.02072
184.903	0.752	0.02077
184.371	0.752	0.02079
183.963	0.752	0.02011
185.602	1.507	0.02216
185.087	1.508	0.02209
184.516	1.508	0.02206
184.171	1.508	0.02151
185.078	2.252	0.02416
184.541	2.251	0.02397
184.292	2.252	0.02374
183.844	2.252	0.02407
184.688	2.884	0.02694
184.300	2.884	0.02699
183.918	2.884	0.02692
183.674	2.885	0.02723
184.243	3.449	0.03246
183.964	3.449	0.03251
183.733	3.450	0.03364
183.486	3.450	0.03404
199.676	1.013	0.02271
199.006	1.013	0.02269
199.033	1.014	0.02260
198.544	1.014	0.02258
199.330	1.531	0.02344
198.735	1.531	0.02344
198.347	1.532	0.02324
198.016	1.531	0.02290
199.379	2.669	0.02582
198.893	2.670	0.02592
198.471	2.671	0.02586
198.055	2.669	0.02589
198.901	3.520	0.02876
198.535	3.520	0.02894
198.178	3.520	0.02884
197.847	3.519	0.02874
198.920	4.156	0.03241
198.545	4.156	0.03246
198.129	4.156	0.03235
197.856	4.156	0.03271
198.576	4.568	0.03611
198.243	4.568	0.03640
197.957	4.569	0.03666
197.623	4.568	0.03688
198.546	4.860	0.04013
198.321	4.860	0.04052
197.947	4.861	0.04067
197.737	4.861	0.04065
198.059	5.049	0.04489
197.769	5.049	0.04498
197.600	5.049	0.04524
197.361	5.049	0.04518
197.928	5.172	0.04844
197.711	5.172	0.04906
197.542	5.172	0.04972
197.323	5.172	0.04996
197.897	5.229	0.05060
197.733	5.229	0.05105
197.549	5.230	0.05194
197.367	5.229	0.05249
197.769	5.328	0.05377
197.637	5.328	0.05438
197.424	5.329	0.05510
197.318	5.328	0.05535
197.894	5.407	0.05720
197.711	5.408	0.05796
197.560	5.408	0.05854
197.396	5.407	0.05971
198.115	5.500	0.06127
197.914	5.500	0.06186
197.829	5.500	0.06256
197.597	5.499	0.06301
198.226	5.692	0.06875
198.053	5.692	0.06921
197.882	5.692	0.06919
197.678	5.693	0.07018
198.474	5.965	0.07159
198.275	5.966	0.07175
198.070	5.966	0.07203
197.904	5.967	0.07253
198.471	6.571	0.07406
198.290	6.571	0.07372
198.023	6.572	0.07424
197.943	6.571	0.07435
198.650	7.445	0.07703
198.306	7.446	0.07759
197.917	7.447	0.07758
197.672	7.447	0.07822
198.998	8.899	0.08202
198.586	8.899	0.08243
198.134	8.900	0.08295
197.859	8.900	0.08331
199.382	11.180	0.08843
198.850	11.180	0.08894
198.640	11.180	0.08921
198.159	11.180	0.08973
199.233	14.451	0.09632
198.829	14.449	0.09669
198.513	14.449	0.09701
197.985	14.452	0.09736
199.647	19.223	0.10559
199.171	19.221	0.10573
198.766	19.217	0.10577
198.521	19.214	0.10675
200.860	26.073	0.11455
200.358	26.073	0.11503
199.942	26.070	0.11546
199.516	26.067	0.11552
201.141	35.267	0.12669
200.642	35.265	0.12733
200.211	35.263	0.12763
199.725	35.263	0.12779
200.885	47.247	0.14078
200.367	47.244	0.14141
199.989	47.240	0.14138
199.680	47.238	0.14174
201.164	62.619	0.15625
200.687	62.619	0.15668
200.378	62.620	0.15687
200.002	62.621	0.15719
201.156	69.413	0.16311
200.706	69.417	0.16328
200.328	69.421	0.16356
200.030	69.426	0.16391
215.053	1.068	0.02440
214.489	1.068	0.02427
213.947	1.068	0.02432
213.426	1.068	0.02411
215.328	1.747	0.02539
214.790	1.747	0.02534
214.260	1.747	0.02527
213.806	1.748	0.02512
214.864	3.035	0.02764
214.326	3.036	0.02749
213.846	3.036	0.02786
213.566	3.038	0.02761
214.431	4.165	0.03069
214.021	4.165	0.03068
213.625	4.165	0.03067
213.296	4.165	0.03069
215.344	5.021	0.03384
214.428	5.021	0.03398
213.774	5.021	0.03421
213.072	5.021	0.03439
214.675	5.810	0.03844
214.439	5.811	0.03821
214.014	5.813	0.03806
213.567	5.810	0.03916
214.369	6.372	0.04281
214.079	6.373	0.04283
213.712	6.370	0.04267
213.474	6.371	0.04309
213.934	6.928	0.04797
213.759	6.929	0.04831
213.375	6.929	0.04862
213.185	6.930	0.04903
213.566	7.356	0.05295
213.304	7.357	0.05301
213.126	7.358	0.05368
212.961	7.356	0.05366
213.712	7.759	0.05644
213.375	7.759	0.05737
213.200	7.760	0.05756
213.080	7.759	0.05726
213.798	8.254	0.06038
213.577	8.255	0.06079
213.415	8.255	0.06104
213.191	8.255	0.06131
213.742	8.697	0.06346
213.550	8.697	0.06392
213.349	8.698	0.06411
213.104	8.696	0.06449
213.965	9.310	0.06672
213.642	9.311	0.06707
213.475	9.312	0.06704
213.336	9.309	0.06724
214.655	10.068	0.06921
214.386	10.069	0.06976
214.165	10.069	0.06979
213.890	10.070	0.07016
214.865	11.106	0.07303
214.535	11.106	0.07333
214.277	11.106	0.07371
213.865	11.107	0.07408
215.388	12.417	0.07699
214.771	12.418	0.07741
214.164	12.420	0.07800
213.575	12.422	0.07822
215.850	14.257	0.08117
215.227	14.257	0.08180
214.710	14.257	0.08221
214.290	14.256	0.08228
216.298	16.764	0.08664
215.635	16.766	0.08724
215.026	16.764	0.08762
214.509	16.767	0.08784
215.935	20.275	0.09375
215.396	20.274	0.09422
214.891	20.273	0.09476
214.387	20.270	0.09491
216.265	24.891	0.10143
215.719	24.888	0.10199
215.148	24.888	0.10220
214.700	24.886	0.10268
215.940	31.251	0.11115
215.396	31.251	0.11137
214.911	31.248	0.11176
214.518	31.245	0.11199
215.647	39.620	0.12178
215.127	39.618	0.12224
214.645	39.614	0.12254
214.236	39.613	0.12271
215.862	48.553	0.13178
215.441	48.554	0.13202
214.911	48.549	0.13238
214.480	48.547	0.13296
216.114	57.652	0.14103
215.631	57.648	0.14139
215.140	57.648	0.14170
214.778	57.645	0.14182
215.841	66.100	0.14935
215.368	66.103	0.14975
214.932	66.101	0.15016
214.525	66.103	0.15037
215.706	69.263	0.15259
215.349	69.269	0.15309
214.975	69.277	0.15329
214.553	69.276	0.15348
234.956	0.977	0.02653
234.383	0.978	0.02645
233.637	0.978	0.02634
233.152	0.979	0.02632
236.032	3.145	0.02945
235.316	3.146	0.02945
234.753	3.147	0.02935
234.261	3.148	0.02936
235.158	5.135	0.03353
234.655	5.135	0.03361
234.220	5.135	0.03361
233.740	5.135	0.03361
236.400	7.129	0.03839
235.396	7.129	0.03946
234.339	7.131	0.03952
233.533	7.132	0.04043
235.044	9.424	0.04971
234.249	9.425	0.05104
233.554	9.426	0.05041
232.938	9.427	0.05029
235.259	11.469	0.05858
234.432	11.470	0.05903
233.788	11.471	0.05974
233.227	11.472	0.05926
235.523	13.600	0.06554
234.841	13.600	0.06603
234.078	13.601	0.06642
233.513	13.602	0.06670
235.351	15.750	0.07173
234.621	15.750	0.07219
234.028	15.751	0.07238
233.472	15.751	0.07282
235.036	17.692	0.07644
234.425	17.692	0.07687
233.812	17.693	0.07712
233.349	17.693	0.07740
234.799	20.536	0.08188
234.255	20.535	0.08272
233.698	20.535	0.08318
233.233	20.535	0.08348
235.343	23.411	0.08734
234.724	23.411	0.08768
234.109	23.411	0.08784
233.639	23.410	0.08845
235.025	26.932	0.09332
234.553	26.932	0.09311
234.168	26.932	0.09383
233.546	26.931	0.09395
235.148	30.368	0.09844
234.592	30.366	0.09894
234.248	30.361	0.09922
233.560	30.360	0.09935
234.964	34.092	0.10331
234.389	34.091	0.10359
233.804	34.090	0.10395
233.473	34.089	0.10356
235.426	37.551	0.10755
234.763	37.547	0.10794
234.319	37.547	0.10824
233.849	37.543	0.10825
235.318	41.022	0.11189
234.701	41.021	0.11212
234.205	41.021	0.11239
233.707	41.018	0.11263
235.189	44.354	0.11637
234.641	44.354	0.11599
234.130	44.351	0.11643
233.731	44.350	0.11693
235.016	47.931	0.12000
234.521	47.932	0.12028
234.030	47.927	0.12052
233.633	47.928	0.12049
234.971	51.244	0.12341
234.454	51.246	0.12389
234.029	51.243	0.12423
233.650	51.240	0.12465
235.440	55.105	0.12730
234.914	55.104	0.12766
234.391	55.102	0.12801
233.958	55.098	0.12822
235.316	58.418	0.13073
234.894	58.416	0.13080
234.436	58.416	0.13120
233.899	58.413	0.13157
235.308	61.887	0.13415
234.767	61.887	0.13448
234.277	61.885	0.13461
233.911	61.882	0.13451
235.226	65.387	0.13752
234.756	65.384	0.13780
234.141	65.382	0.13834
233.842	65.381	0.13807
235.239	68.761	0.14080
234.730	68.761	0.14104
234.268	68.757	0.14156
233.731	68.757	0.14160
255.835	1.020	0.02906
255.177	1.020	0.02900
254.645	1.019	0.02887
253.943	1.019	0.02881
256.518	2.714	0.03098
255.864	2.714	0.03081
255.237	2.716	0.03080
254.735	2.717	0.03076
255.777	4.718	0.03381
255.276	4.721	0.03367
254.679	4.726	0.03365
254.209	4.732	0.03350
256.067	6.551	0.03709
255.011	6.552	0.03707
254.140	6.555	0.03697
253.452	6.558	0.03716
256.771	6.788	0.03763
255.562	6.788	0.03765
254.504	6.789	0.03768
256.308	8.785	0.04254
255.358	8.785	0.04274
254.477	8.785	0.04276
253.831	8.786	0.04315
256.639	11.182	0.04911
255.633	11.183	0.04934
254.824	11.183	0.04949
254.114	11.187	0.04973
256.101	13.268	0.05538
255.217	13.269	0.05549
254.473	13.270	0.05559
253.901	13.273	0.05589
256.416	15.396	0.06085
255.651	15.397	0.06112
254.967	15.399	0.06134
254.357	15.401	0.06167
256.151	17.518	0.06596
255.415	17.519	0.06619
254.730	17.521	0.06643
254.159	17.522	0.06667
255.901	20.351	0.07195
255.130	20.352	0.07227
254.542	20.353	0.07266
254.029	20.351	0.07260
256.273	23.422	0.07746
255.560	23.422	0.07781
254.902	23.423	0.07792
254.313	23.423	0.07809
255.901	26.850	0.08305
255.234	26.850	0.08338
254.549	26.851	0.08345
254.205	26.849	0.08391
255.776	30.401	0.08833
255.193	30.399	0.08852
254.584	30.400	0.08907
254.087	30.397	0.08915
255.663	33.905	0.09323
255.054	33.907	0.09361
254.579	33.909	0.09388
254.064	33.909	0.09394
255.663	37.376	0.09780
255.091	37.374	0.09811
254.512	37.373	0.09820
254.068	37.374	0.09838
256.199	40.731	0.10193
255.692	40.729	0.10218
255.244	40.727	0.10249
256.203	44.631	0.10593
255.607	44.631	0.10628
254.993	44.631	0.10634
254.544	44.632	0.10682
256.097	48.090	0.10970
255.479	48.089	0.11007
254.909	48.089	0.11033
254.428	48.087	0.11059
255.939	51.674	0.11361
255.358	51.673	0.11379
254.925	51.672	0.11397
254.412	51.673	0.11422
256.371	56.210	0.11793
255.786	56.209	0.11819
255.239	56.207	0.11843
254.711	56.208	0.11839
254.267	56.203	0.11912
255.471	59.687	0.12184
255.429	59.690	0.12189
254.396	59.684	0.12209
254.078	59.683	0.12246
255.957	63.260	0.12586
255.379	63.260	0.12659
254.993	63.255	0.12468
254.436	63.252	0.12537
255.922	66.477	0.12880
255.361	66.480	0.12865
254.827	66.474	0.12888
254.429	66.473	0.12852
275.820	1.015	0.03152
275.218	1.015	0.03144
274.623	1.015	0.03134
274.083	1.016	0.03134
276.019	2.495	0.03288
275.382	2.495	0.03289
274.765	2.496	0.03277
274.285	2.497	0.03274
275.546	4.446	0.03509
275.066	4.447	0.03495
274.433	4.448	0.03499
274.021	4.449	0.03489
275.252	6.508	0.03804
274.818	6.508	0.03809
274.354	6.507	0.03807
274.121	6.507	0.03816
277.314	8.401	0.04135
276.746	8.402	0.04134
276.190	8.405	0.04126
275.541	8.407	0.04120
276.595	10.552	0.04551
276.054	10.553	0.04548
275.617	10.555	0.04543
275.127	10.559	0.04547
276.632	12.673	0.05004
276.126	12.674	0.05012
275.640	12.675	0.05008
275.203	12.678	0.05007
276.728	14.652	0.05439
276.201	14.653	0.05443
275.829	14.655	0.05449
275.408	14.656	0.05452
276.345	16.954	0.05929
275.929	16.954	0.05945
275.539	16.956	0.05941
275.111	16.957	0.05939
276.052	19.153	0.06356
275.714	19.154	0.06373
275.280	19.155	0.06382
275.004	19.155	0.06383
276.700	21.322	0.06746
275.909	21.323	0.06757
275.069	21.324	0.06782
274.513	21.325	0.06784
276.428	23.529	0.07133
275.693	23.529	0.07146
274.982	23.531	0.07168
274.401	23.535	0.07155
276.181	26.983	0.07678
275.483	26.984	0.07696
274.770	26.986	0.07718
274.248	26.988	0.07728
276.033	30.486	0.08188
275.358	30.487	0.08186
274.715	30.488	0.08231
274.239	30.490	0.08232
276.647	33.987	0.08653
276.018	33.989	0.08678
275.248	33.987	0.08684
274.869	33.991	0.08710
276.150	37.531	0.09067
275.502	37.530	0.08976
274.848	37.529	0.09182
274.390	37.528	0.08826
276.052	41.154	0.09492
275.385	41.153	0.09586
274.737	41.151	0.09528
274.280	41.151	0.09576
275.921	44.660	0.09929
275.284	44.660	0.10015
274.679	44.660	0.09936
274.171	44.660	0.09927
275.776	48.079	0.10277
275.237	48.080	0.10290
274.656	48.078	0.10284
274.170	48.078	0.10364
276.282	51.734	0.10645
275.668	51.733	0.10652
275.120	51.733	0.10682
274.592	51.732	0.10677
276.367	55.237	0.10987
275.610	55.235	0.11000
275.048	55.235	0.11026
274.537	55.233	0.11059
276.173	58.748	0.11329
275.531	58.747	0.11347
274.999	58.748	0.11361
274.471	58.749	0.11393
276.101	62.502	0.11694
275.477	62.503	0.11710
274.905	62.499	0.11722
274.457	62.497	0.11744
275.948	65.832	0.12004
275.385	65.838	0.12010
274.943	65.840	0.12014
274.423	65.839	0.12016
276.499	69.251	0.12280
275.940	69.252	0.12306
275.379	69.254	0.12327
274.798	69.256	0.12333
296.783	0.988	0.03402
296.042	0.988	0.03389
295.352	0.988	0.03383
294.797	0.989	0.03357
296.430	1.949	0.03477
295.783	1.949	0.03465
295.177	1.950	0.03465
294.638	1.950	0.03451
296.023	3.911	0.03648
295.413	3.912	0.03651
294.915	3.913	0.03640
294.458	3.914	0.03638
296.320	5.976	0.03882
295.741	5.978	0.03879
295.153	5.981	0.03866
294.671	5.974	0.03862
295.849	8.077	0.04152
295.213	8.079	0.04159
294.626	8.082	0.04152
294.135	8.087	0.04146
295.366	10.365	0.04499
294.726	10.367	0.04503
294.274	10.369	0.04496
293.791	10.373	0.04498
294.991	12.169	0.04808
294.453	12.171	0.04798
293.987	12.173	0.04822
293.540	12.176	0.04813
296.186	14.295	0.05170
295.091	14.297	0.05178
294.119	14.297	0.05174
293.367	14.299	0.05159
295.764	16.379	0.05529
294.721	16.379	0.05535
293.904	16.381	0.05534
293.091	16.382	0.05532
295.420	18.657	0.05917
294.415	18.658	0.05936
293.588	18.659	0.05936
292.903	18.662	0.05952
295.068	21.429	0.06390
294.252	21.432	0.06409
293.482	21.432	0.06409
292.793	21.434	0.06431
295.659	25.128	0.06921
294.864	25.127	0.06971
294.012	25.128	0.06969
293.449	25.126	0.06976
295.578	28.719	0.07460
294.771	28.716	0.07485
294.080	28.712	0.07495
293.601	28.713	0.07484
296.573	32.484	0.07914
295.711	32.483	0.07927
295.042	32.484	0.07926
294.303	32.485	0.07989
296.404	36.134	0.08342
295.521	36.135	0.08366
294.862	36.136	0.08384
294.272	36.136	0.08398
296.324	39.442	0.08733
295.531	39.442	0.08743
294.765	39.444	0.08756
294.155	39.444	0.08786
296.156	42.826	0.09103
295.472	42.826	0.09127
294.753	42.827	0.09125
294.259	42.827	0.09136
296.097	46.333	0.09470
295.347	46.333	0.09492
294.739	46.333	0.09497
294.112	46.334	0.09524
296.086	49.998	0.09847
295.349	50.000	0.09867
294.672	50.000	0.09883
294.162	50.001	0.09914
295.878	53.680	0.10213
295.267	53.681	0.10220
294.552	53.682	0.10237
294.003	53.685	0.10249
295.330	57.061	0.10541
294.706	57.060	0.10558
294.110	57.061	0.10584
293.609	57.062	0.10574
295.232	60.576	0.10865
294.648	60.576	0.10885
294.036	60.578	0.10897
293.630	60.577	0.10909
295.187	63.953	0.11177
294.555	63.958	0.11204
294.012	63.952	0.11193
293.475	63.951	0.11241
295.776	67.319	0.11471
295.118	67.321	0.11491
294.631	67.320	0.11510
294.106	67.323	0.11521
309.085	1.076	0.03591
308.341	1.076	0.03610
307.755	1.077	0.03581
307.128	1.077	0.03558
309.214	2.675	0.03742
308.624	2.675	0.03733
308.033	2.676	0.03701
307.414	2.678	0.03693
309.391	4.743	0.03936
308.849	4.743	0.03910
308.250	4.743	0.03915
307.648	4.744	0.03901
309.635	6.732	0.04148
309.040	6.732	0.04153
308.464	6.733	0.04146
307.941	6.733	0.04127
309.267	8.876	0.04426
308.712	8.876	0.04395
308.170	8.877	0.04402
307.710	8.877	0.04403
310.021	11.038	0.04719
308.898	11.039	0.04715
307.879	11.039	0.04683
307.031	11.039	0.04695
309.673	13.147	0.05009
308.603	13.147	0.04996
307.642	13.148	0.05023
306.841	13.148	0.05033
309.353	15.185	0.05320
308.309	15.186	0.05323
307.523	15.186	0.05323
306.746	15.186	0.05325
310.102	17.278	0.05639
308.975	17.278	0.05647
308.110	17.277	0.05644
307.320	17.276	0.05646
309.770	19.464	0.05973
308.761	19.463	0.05986
307.944	19.463	0.05983
307.225	19.462	0.06000
309.480	22.418	0.06411
308.591	22.418	0.06422
307.806	22.418	0.06422
307.109	22.418	0.06411
309.260	26.028	0.06920
308.444	26.028	0.06941
307.756	26.028	0.06941
307.136	26.028	0.06952
310.093	29.477	0.07393
309.235	29.477	0.07395
308.527	29.476	0.07417
307.869	29.475	0.07430
309.694	33.098	0.07815
308.929	33.097	0.07827
308.143	33.098	0.07833
307.480	33.098	0.07850
309.498	36.518	0.08199
308.688	36.519	0.08222
308.056	36.520	0.08215
307.447	36.521	0.08216
309.222	39.909	0.08588
308.550	39.909	0.08603
307.881	39.911	0.08621
307.206	39.914	0.08623
309.943	43.084	0.08913
309.132	43.083	0.08928
308.403	43.081	0.08918
307.807	43.079	0.08970
309.716	46.727	0.09303
309.019	46.727	0.09312
308.324	46.726	0.09305
307.749	46.725	0.09325
309.703	50.127	0.09630
308.899	50.126	0.09644
308.226	50.126	0.09638
307.650	50.126	0.09665
309.618	53.476	0.09950
308.897	53.476	0.09960
308.209	53.476	0.09974
307.616	53.475	0.09982
309.416	57.009	0.10283
308.753	57.009	0.10306
308.134	57.009	0.10301
307.513	57.008	0.10321
309.315	60.531	0.10601
308.655	60.530	0.10623
308.072	60.531	0.10653
307.537	60.531	0.10647
309.320	64.078	0.10919
308.648	64.078	0.10926
308.025	64.075	0.10942
307.462	64.077	0.10948
313.129	66.672	0.11038
312.494	66.678	0.11055
311.828	66.670	0.11076
311.372	66.685	0.11071
309.358	67.415	0.11215
308.758	67.414	0.11244
308.136	67.414	0.11259
307.614	67.416	0.11278
301.10	1.61	0.03585
300.98	2.10	0.03606
300.90	2.36	0.03635
300.89	3.06	0.03698
300.64	3.60	0.03729
300.54	4.08	0.03772
300.35	4.56	0.03822
300.30	5.04	0.03873
300.15	5.87	0.03967
300.05	6.58	0.04039
299.95	7.42	0.04157
299.85	8.11	0.04290
299.73	9.18	0.04400
299.61	10.18	0.04558
299.49	11.15	0.04704
299.40	12.13	0.04868
299.32	13.08	0.05026
299.16	14.12	0.05184
299.09	15.15	0.05368
299.05	15.72	0.05455
298.93	18.14	0.05883
298.88	19.60	0.06132
298.80	21.17	0.06353
298.78	22.81	0.06630
298.77	24.20	0.06831
298.73	25.48	0.07068
298.73	27.17	0.07269
298.65	28.64	0.07464
298.66	30.09	0.07669
298.65	31.41	0.07835
298.65	32.85	0.07991
298.65	33.90	0.08148
298.67	35.35	0.08276
307.48	1.84	0.03645
307.27	2.60	0.03701
307.16	3.31	0.03762
307.03	3.93	0.03809
306.96	4.49	0.03862
306.82	5.06	0.03922
306.73	5.79	0.03999
306.62	6.48	0.04078
306.58	7.12	0.04153
306.87	7.81	0.04271
306.73	8.36	0.04339
306.66	8.79	0.04399
306.52	9.27	0.04465
96.76	0.101325	0.010255
125.35	0.101325	0.013368
140.49	0.101325	0.015096
155.29	0.101325	0.016757
169.93	0.101325	0.018435
185.41	0.101325	0.020104
201.24	0.101325	0.021945
216.69	0.101325	0.023782
231.71	0.101325	0.025594
246.86	0.101325	0.027422
262.85	0.101325	0.029393
278.72	0.101325	0.031422
290.09	0.101325	0.033581
324.00	0.101325	0.037597
338.60	0.101325	0.039911
353.96	0.101325	0.042000
368.33	0.101325	0.044890
383.57	0.101325	0.047597
299.45	0.10	0.03474
299.45	1.07	0.03492
299.45	2.04	0.03599
299.45	3.00	0.03656
299.45	3.97	0.03768
299.45	4.94	0.03843
299.45	5.91	0.03986
299.45	6.88	0.04078
299.45	7.79	0.04232
299.45	7.84	0.04256
299.45	8.81	0.04335
299.45	9.78	0.04489
299.45	10.75	0.04630
299.45	11.71	0.04793
299.45	12.68	0.04995
299.45	13.65	0.05114
299.45	14.62	0.05290
299.45	15.54	0.05451
299.45	15.59	0.05465
275.18	0.101325	0.30480
276.18	0.101325	0.30619
277.17	0.101325	0.30853
279.17	0.101325	0.31079
281.18	0.101325	0.31372
283.18	0.101325	0.31372
275.05	0.101325	0.0314637
297.75	0.101325	0.0343506
316.75	0.101325	0.0370702
348.25	0.101325	0.0418818
277.594	0.101325	0.031219
310.928	0.101325	0.035235
377.594	0.101325	0.044628
410.928	0.101325	0.050505
444.261	0.101325	0.055717
299.8	0.101325	0.0337649
333	0.101325	0.0381623
375.5	0.101325	0.0445805
423.3	0.101325	0.0523711
472.3	0.101325	0.0604504
238.70	0.10	0.02608
231.80	0.10	0.02525
224.80	0.10	0.02445
216.40	0.10	0.02347
210.00	0.10	0.02271
183.20	0.10	0.01968
176.80	0.10	0.01901
165.30	0.10	0.01775
152.60	0.10	0.01639
140.30	0.10	0.01507
238.70	0.10	0.02608
238.80	0.20	0.02613
238.80	0.26	0.02616
238.50	0.69	0.02622
238.50	1.06	0.0268
238.80	2.09	0.02771
239.00	2.09	0.0279
238.80	3.04	0.02917
239.00	3.19	0.02912
238.80	4.02	0.03052
238.80	4.02	0.03048
239.00	4.33	0.03119
239.00	4.33	0.03073
238.80	5.04	0.03228
239.20	5.36	0.03299
239.20	6.49	0.03576
238.50	6.86	0.03718
238.30	8.53	0.0435
239.00	8.72	0.05045
238.50	10.01	0.05161
238.50	12.41	0.06205
238.50	12.41	0.06167
238.50	14.62	0.06778
238.50	14.81	0.06904
238.50	19.72	0.07913
238.50	19.72	0.07842
238.50	29.42	0.09399
238.80	29.53	0.09366
239.00	40.22	0.1066
239.00	50.13	0.1169
239.00	50.23	0.1172
231.80	0.10	0.02525
231.80	0.43	0.02539
231.80	1.08	0.026
231.60	2.07	0.02669
231.80	2.07	0.02677
231.80	3.04	0.02824
231.80	4.12	0.03045
231.60	5.20	0.03266
231.60	5.20	0.03257
231.80	5.99	0.03496
231.80	5.99	0.03529
231.80	6.58	0.03722
232.10	7.16	0.03982
231.80	7.16	0.0399
231.80	7.99	0.04513
231.80	7.99	0.04484
231.80	8.34	0.04961
231.80	8.84	0.05058
231.80	9.96	0.05732
231.80	9.96	0.05715
231.60	10.89	0.06155
231.60	10.89	0.06213
231.80	11.88	0.06464
231.80	11.88	0.06569
231.80	13.49	0.07046
231.80	15.30	0.0744
231.60	19.72	0.08369
231.60	19.72	0.08344
231.80	23.79	0.09039
231.60	29.53	0.09856
224.80	0.10	0.02445
224.80	0.30	0.02462
224.90	0.30	0.02448
224.80	0.61	0.0248
225.00	0.69	0.02477
224.90	1.06	0.025
224.80	1.08	0.02521
224.10	2.11	0.02626
224.10	2.11	0.02639
224.60	3.04	0.02777
224.80	3.04	0.02783
224.80	4.00	0.0302
224.90	4.02	0.03017
224.60	4.74	0.03218
224.80	5.01	0.0327
224.80	5.01	0.03262
224.80	5.01	0.03282
224.90	6.02	0.03714
224.90	6.02	0.03668
224.9	6.86	0.0425
224.8	6.97	0.04308
225.4	7.75	0.05367
225.6	7.85	0.05414
224.8	8.83	0.06163
224.1	9.91	0.06657
224.8	9.91	0.06582
223.8	11.43	0.07189
223.8	11.43	0.07051
223.3	12.36	0.07327
223.3	12.36	0.07272
224.1	14.71	0.07884
223.3	14.81	0.07909
224.8	16.38	0.08215
224.1	20.2	0.08972
224.1	20.2	0.08939
224.1	25.21	0.09684
224.4	29.53	0.1025
223.4	38.94	0.1138
224.9	39.14	0.1127
223.4	48.36	0.123
223.4	48.66	0.1229
223.4	48.85	0.1237
216.4	0.1	0.02347
216.3	0.42	0.02361
216.1	1.09	0.02414
216.1	1.97	0.0253
216.1	3.06	0.02752
216.3	4.07	0.03041
216.3	5.01	0.03397
216.3	5.5	0.03743
216.3	5.5	0.03751
216.1	6.18	0.044
216.3	6.58	0.051
216.3	6.58	0.05007
216.6	6.97	0.0574
216.6	6.97	0.05799
216.3	7.16	0.06016
216.3	7.16	0.05941
216.3	7.46	0.06368
216.3	7.94	0.06678
216.3	7.99	0.06728
216.3	8.93	0.07126
216.6	11.28	0.07767
216.6	12.85	0.08127
216.6	15.79	0.08805
216.6	19.52	0.09416
216.6	19.72	0.0937
216.3	25.41	0.1025
210	0.1	0.02271
209.8	1.1	0.02336
208.4	1.41	0.02363
209.3	1.77	0.02413
210.3	2.08	0.02465
209.8	2.41	0.02552
209.8	2.41	0.02527
207.5	2.91	0.02665
210.3	3.07	0.02727
210.3	3.07	0.02714
209	3.54	0.0291
209	3.54	0.02848
210.3	3.95	0.03102
210.3	3.95	0.03086
207.5	4.3	0.03295
207.5	4.3	0.03274
210.1	5.01	0.03864
210.1	5.01	0.03898
210.6	5.24	0.04296
210.6	5.24	0.04262
210.1	5.48	0.04919
210.1	5.48	0.05066
210.1	5.48	0.04907
209.5	5.72	0.05598
210.1	5.99	0.06376
209.6	6	0.06816
210.1	6.1	0.06958
210.1	6.1	0.0708
210.1	6.2	0.07235
210.1	6.2	0.07545
209.8	6.94	0.0775
209.8	6.94	0.07821
206.6	7.32	0.07285
209.6	7.32	0.0736
209.6	7.32	0.0731
209.5	7.35	0.07235
209.6	7.35	0.07105
209.6	7.66	0.07239
210.7	8.24	0.07402
210.8	8.24	0.0749
210.8	9.91	0.07892
210.1	12.46	0.08386
209.8	14.71	0.08918
210.3	14.92	0.09002
209.8	16.78	0.09391
209.8	16.78	0.09303
210	19.72	0.09814
210	30.5	0.1125
210	31.2	0.1135
209.6	39.73	0.1225
209.6	39.73	0.1228
209.6	48.95	0.1311
209.6	48.95	0.1318
209.6	50.52	0.1334
195.9	2.19	0.02553
195.9	2.19	0.02523
195.6	2.19	0.02513
195.9	3.14	0.02835
195.4	3.14	0.02852
195.6	3.14	0.02792
195.6	4.13	0.03323
195.4	4.13	0.03253
195.9	4.15	0.03459
194.9	4.15	0.0339
195.4	4.18	0.03423
195.6	4.18	0.03379
195.3	4.51	0.04127
195.9	4.66	0.04371
195.9	4.81	0.05409
194.9	4.81	0.05434
195.5	4.92	0.06251
195.9	4.93	0.06854
194.9	4.93	0.06737
194.9	4.93	0.06783
195.9	5.04	0.0803
195.6	5.04	0.0842
195.9	5.05	0.08487
195.9	5.06	0.08625
195.9	5.07	0.0914
195.9	5.08	0.09789
194.9	5.09	0.1128
195.9	5.1	0.1146
194.9	5.1	0.1238
194.9	5.11	0.143
194.9	5.11	0.147
194.9	5.11	0.1439
194.9	5.12	0.1498
194.9	5.12	0.1487
194.9	5.16	0.1631
194.9	5.16	0.174
194.9	5.16	0.1681
194.9	5.16	0.1716
194.9	5.16	0.1653
194.9	5.17	0.1711
194.9	5.26	0.1565
194.9	5.28	0.1533
194.9	5.28	0.1514
194.9	5.28	0.1487
194.9	5.35	0.1243
194.9	5.35	0.1258
194.9	5.35	0.1231
194.9	5.4	0.1173
194.9	5.47	0.09579
194.9	5.48	0.09889
194.9	5.5	0.1023
194.9	5.5	0.09944
194.9	5.5	0.1014
194.9	5.5	0.1002
194.9	5.5	0.1009
194.9	5.51	0.1008
194.9	5.52	0.09579
194.9	5.52	0.09542
194.9	5.52	0.09596
194.9	5.62	0.08897
194.9	5.62	0.08956
194.9	5.62	0.09864
194.9	6.09	0.08353
194.9	6.09	0.08378
195.4	7.05	0.08487
195.4	7.05	0.0842
195.9	7.06	0.08642
194.9	7.09	0.08457
194.9	7.1	0.08579
194.9	7.1	0.08596
195.9	8.15	0.08771
195.4	8.15	0.087
195.9	9.13	0.09002
195.4	9.13	0.08771
195.4	9.13	0.08847
195.9	10.01	0.0914
195.4	10.1	0.09081
194.9	10.1	0.09257
195.9	12.41	0.0963
195.4	12.41	0.09491
195.9	12.46	0.09588
195.6	12.46	0.09491
195.6	14.81	0.1023
195.4	14.81	0.1034
195.4	14.81	0.1014
195.9	19.37	0.1113
195.4	19.37	0.1099
195.4	22.66	0.1135
194.5	22.66	0.1147
195.9	22.66	0.1162
188.4	2	0.02314
188.4	2	0.02255
188.6	3.04	0.02587
188.9	3.04	0.02541
188.6	3.74	0.03635
188.9	3.74	0.03513
188.9	4.18	0.07088
188.9	4.2	0.07691
188.6	4.26	0.08717
188.6	4.28	0.09487
188.6	4.28	0.09512
188.6	4.28	0.09345
188.6	4.29	0.1007
188.6	4.32	0.1064
188.6	4.55	0.0911
188.6	4.56	0.0937
188.6	4.57	0.09898
188.6	5.99	0.09412
188.4	5.99	0.09324
188.4	5.99	0.09458
188.4	5.99	0.09395
188.4	7.94	0.09479
188.4	7.94	0.09462
188.2	10.1	0.09743
188.2	10.1	0.09713
188.2	10.1	0.09814
187.9	11.08	0.1003
187.9	11.08	0.09906
188.6	14.92	0.106
188.6	14.92	0.104
188.6	19.53	0.1136
188.6	19.53	0.1118
188.9	19.62	0.1126
188.9	19.62	0.1113
187.9	20.7	0.1155
187.9	20.89	0.1145
187.9	20.89	0.1138
188.4	29.63	0.1275
188.4	29.73	0.1267
188.4	29.73	0.1275
188.2	39.33	0.1382
188.2	39.54	0.138
187.9	47.19	0.1474
187.9	47.19	0.1455
187.9	49.14	0.1491
183.2	0.1	0.01968
183.2	0.26	0.01968
183.7	0.26	0.01995
182.9	1.57	0.02177
183.2	1.57	0.02165
183.2	2.58	0.02575
183.2	2.58	0.02546
183.2	3.07	0.02863
182.9	3.69	0.08747
182.9	3.69	0.08856
182.9	7.46	0.09666
183.2	7.46	0.09862
183.5	10.01	0.1051
183.5	10.01	0.1023
183.5	14.92	0.1125
183.5	14.92	0.1118
183.7	19.72	0.1189
183.7	19.72	0.1201
183.5	29.53	0.1317
183.5	29.53	0.1333
183.5	39.73	0.1427
183.2	49.14	0.1527
183.2	49.14	0.1515
176.8	0.1	0.01901
177	0.3	0.01932
177	0.3	0.01922
175.7	0.91	0.02023
176.8	1.67	0.02258
176.5	2.61	0.02853
176.5	2.61	0.02824
176.4	3.83	0.1004
176.4	3.83	0.0994
176.7	5.01	0.1026
176.7	5.01	0.102
177	6.24	0.1054
177.5	7.95	0.1089
176.7	7.95	0.108
177	10.06	0.1126
177.5	11.68	0.1164
177.5	11.68	0.1153
176.5	19.72	0.1273
176.5	19.72	0.129
176.5	29.53	0.1406
176.7	39.19	0.1501
176.7	39.19	0.1491
177	48.8	0.158
177	48.8	0.159
165.3	0.1	0.01775
166	0.75	0.01848
164.2	1.54	0.02288
164.2	1.54	0.02265
165	3.59	0.1247
165.5	3.59	0.125
164.2	5.2	0.1261
165	5.4	0.1268
165.3	7.95	0.1313
164.7	9.71	0.1342
166	14.81	0.1417
164.7	20.36	0.1474
164.7	20.36	0.1485
166.2	29.33	0.1572
164.7	29.53	0.1572
164.2	39.14	0.1673
164.2	49.14	0.1753
164.2	49.14	0.1757
152.6	0.1	0.01639
151.5	0.36	0.01693
151.5	0.36	0.01758
152.7	1.6	0.1447
152.7	3.07	0.1482
152.2	7.36	0.1535
152.2	7.36	0.1567
152.7	9.91	0.1569
151.8	10.6	0.1586
152.9	14.81	0.1641
153.2	14.81	0.164
152.7	19.72	0.1711
152.9	29.13	0.1806
152.7	29.33	0.1782
152.9	39.14	0.185
152.9	39.14	0.1879
152.7	39.24	0.1848
152.7	49.14	0.1943
140.3	0.1	0.01507
140.3	0.3	0.01626
140	0.3	0.01636
141	1.47	0.1681
141	3.36	0.1701
141	3.36	0.1705
141	5.1	0.1729
140.8	5.99	0.1735
139.9	7.94	0.1774
139.3	7.94	0.174
139.5	9.32	0.1774
139.5	12.07	0.1808
139.5	14.81	0.1832
140.3	19.62	0.1884
140	19.72	0.1871
140	29.72	0.1967
140	39.73	0.2012
140	49.14	0.2104
118.8	0.1	0.01271
117.8	0.46	0.1968
119	6.97	0.201
119.7	11.48	0.2003
119.7	11.48	0.2054
119.5	14.92	0.2068
118	19.72	0.2118
117.6	29.53	0.2172
117.6	39.24	0.2234
119.9	39.43	0.2234
119.9	48.75	0.2291
119.9	48.95	0.2265
108.9	2.95	0.2088
108.9	2.95	0.2098
109.4	4.7	0.209
109.4	4.7	0.2112
109.2	9.81	0.2135
109.9	14.81	0.2153
109.9	14.81	0.2168
109.2	19.72	0.2203
109.2	19.72	0.22
109.4	29.53	0.2256
109.4	38.94	0.23
109.4	39.14	0.23
109.4	49.73	0.2378
109.4	49.93	0.235
307.350	0.101325	0.0356
298.650	0.101325	0.0345
368.850	0.101325	0.0451
407.950	0.101325	0.0514
420.250	0.101325	0.0539
465.550	0.101325	0.0623
523.350	0.101325	0.0732
571.850	0.101325	0.0828
575.750	0.101325	0.0846
621.450	0.101325	0.094
307.350	0.10	0.0356
298.650	0.14	0.0345
304.450	1.00	0.0358
298.550	1.00	0.035
303.850	4.40	0.0388
298.450	5.00	0.0384
306.350	5.80	0.0407
302.850	7.30	0.0419
298.850	10.10	0.0455
304.750	10.50	0.0468
301.450	10.50	0.0463
304.150	13.70	0.0513
299.350	14.70	0.0532
303.450	16.30	0.0557
302.750	18.50	0.0593
298.750	20.40	0.0626
302.050	21.60	0.0643
303.250	22.30	0.0654
302.750	26.90	0.0716
298.450	30.60	0.077
302.550	32.30	0.0787
302.350	38.60	0.0863
298.650	40.70	0.089
302.350	45.40	0.0938
298.750	50.90	0.0997
302.250	51.40	0.0999
302.050	58.20	0.1066
298.650	60.90	0.1088
301.750	69.00	0.1159
298.650	71.50	0.1184
301.650	78.50	0.1232
298.650	82.10	0.1268
301.450	87.00	0.1295
298.550	93.90	0.1344
301.250	95.90	0.1364
298.450	101.70	0.1411
301.150	103.60	0.1419
301.150	106.90	0.1435
301.350	116.20	0.1506
368.850	0.10	0.0451
368.750	1.10	0.0456
368.750	4.80	0.0475
369.050	10.20	0.052
369.250	20.60	0.0619
368.850	31.00	0.072
368.650	41.80	0.0819
368.550	51.40	0.09
368.750	60.90	0.0972
368.750	71.60	0.1051
368.750	81.50	0.112
368.550	92.10	0.1192
368.350	102.30	0.1252
407.950	0.10	0.0514
407.650	3.30	0.053
406.850	10.50	0.058
406.250	17.60	0.0633
405.850	24.30	0.0687
405.650	30.80	0.074
406.650	38.50	0.0807
406.150	45.40	0.086
405.650	52.50	0.0913
405.150	59.50	0.0963
404.350	67.20	0.1018
403.750	77.30	0.1082
402.850	83.30	0.112
404.250	95.90	0.1195
404.250	104.50	0.1243
404.350	114.70	0.1302
420.250	0.14	0.0539
420.250	1.00	0.0544
420.450	5.00	0.0563
420.550	10.20	0.0596
420.450	20.60	0.0671
420.350	31.00	0.0751
420.250	40.80	0.0825
420.250	51.30	0.09
420.250	60.90	0.0966
420.150	71.40	0.104
420.050	81.60	0.11
419.950	92.10	0.1165
419.850	101.70	0.1214
465.550	0.14	0.0623
465.550	1.00	0.0628
465.550	5.00	0.0642
466.050	10.20	0.067
465.850	20.80	0.0732
465.650	30.80	0.0796
465.550	40.80	0.0861
465.450	51.10	0.0923
465.350	60.80	0.0982
465.250	71.00	0.1042
465.150	81.70	0.1102
465.150	92.20	0.1161
464.950	102.50	0.1213
483.250	0.55	0.0652
486.850	1.20	0.0664
483.150	3.40	0.0666
486.550	6.80	0.0691
482.850	7.30	0.0686
482.650	11.80	0.0708
487.050	15.10	0.0735
486.650	21.60	0.0772
485.250	28.40	0.0811
484.850	35.90	0.0856
484.550	42.70	0.0898
484.350	54.10	0.0963
484.350	55.10	0.0968
484.050	65.70	0.1025
483.950	70.60	0.1052
483.950	72.60	0.1063
483.750	75.50	0.1078
483.650	79.40	0.1099
483.550	84.30	0.1125
483.550	87.30	0.1142
483.450	95.10	0.1183
483.450	104.90	0.1229
483.450	109.80	0.1251
483.650	112.80	0.1254
523.350	0.14	0.0732
523.350	1.00	0.0737
523.250	5.00	0.0747
523.250	10.40	0.0768
523.150	20.40	0.0816
523.050	30.70	0.087
522.950	40.80	0.0922
522.850	50.90	0.0977
522.650	60.70	0.1029
522.650	71.40	0.1083
522.550	82.40	0.114
522.450	94.90	0.1202
571.850	0.10	0.0828
571.650	5.30	0.0853
571.450	10.50	0.0873
571.350	20.70	0.0916
571.150	30.30	0.0959
570.850	40.50	0.1006
570.850	50.90	0.1054
570.650	60.50	0.1098
570.550	72.60	0.1152
570.450	83.70	0.12
570.350	95.40	0.1252
570.250	107.90	0.1304
570.150	117.40	0.1343
570.050	124.70	0.1375
575.750	0.10	0.0846
575.750	1.00	0.0852
575.750	5.10	0.0861
575.350	10.10	0.0874
575.650	20.50	0.0918
575.550	30.60	0.0962
575.450	40.80	0.1007
575.350	50.70	0.1055
575.350	60.60	0.1103
575.250	69.20	0.1142
575.250	80.60	0.1191
575.150	91.60	0.1238
575.050	103.50	0.129
621.450	0.14	0.094
621.450	1.00	0.0945
621.450	5.00	0.0954
621.450	10.20	0.0968
621.250	20.30	0.1002
621.250	30.50	0.104
621.150	40.50	0.1084
621.050	50.70	0.1123
620.950	60.90	0.1167
620.950	68.40	0.1199
620.950	81.40	0.1254
620.950	92.10	0.1294
620.750	102.20	0.1331
648.650	0.50	0.0987
648.550	3.40	0.1005
648.450	7.00	0.1018
648.450	11.20	0.1031
648.250	21.10	0.1062
648.150	30.50	0.1097
647.950	40.70	0.1134
647.950	50.30	0.1173
647.850	59.40	0.1206
647.750	71.60	0.1251
647.650	83.20	0.1293
647.650	95.10	0.1343
647.750	117.10	0.1415
647.850	119.40	0.1423
648.050	121.10	0.1425
726.550	1.00	0.1145
726.450	3.60	0.1153
725.150	40.10	0.1261
725.050	50.70	0.1289
725.150	60.80	0.1313
725.250	72.00	0.1348
725.450	81.00	0.1379
725.750	89.00	0.1417
323.35	0.101325	0.0377
319.95	0.101325	0.0375
316.75	0.101325	0.0373
312.85	0.101325	0.0367
309.35	0.101325	0.0363
308.25	0.101325	0.0357
303.15	0.101325	0.0351
297.75	0.101325	0.0344
303.15	0.101325	0.0351
309.85	0.101325	0.0366
316.75	0.101325	0.0372
317.75	0.101325	0.0372
323.45	0.101325	0.0377
323.35	0.10	0.0377
319.95	0.10	0.0375
316.75	0.10	0.0373
312.85	0.10	0.0367
309.35	0.10	0.0363
308.25	0.10	0.0357
303.15	0.10	0.0351
297.75	0.10	0.0344
297.75	2.55	0.0363
297.75	5.10	0.0389
297.75	7.50	0.0424
303.15	0.10	0.0351
303.15	5.30	0.0399
303.25	10.01	0.0463
303.25	14.73	0.0553
309.85	0.10	0.0366
312.95	5.07	0.0411
312.85	9.88	0.0466
316.75	0.10	0.0372
316.75	2.58	0.039
316.75	7.60	0.0443
316.85	9.93	0.0471
316.65	12.31	0.0501
316.75	17.36	0.0579
317.75	0.10	0.0372
317.75	5.15	0.0416
317.75	10.00	0.0472
317.75	14.82	0.0538
317.75	19.71	0.0612
323.45	0.10	0.0377
323.45	9.96	0.0477
323.45	14.80	0.0541
298.15	0.101325	0.0339
323.15	0.101325	0.0374
348.15	0.101325	0.0414
98.9	39.82	0.28736
98.93	30.44	0.26761
98.99	20.31	0.22548
99.01	10.13	0.21652
99.02	5.12	0.21171
99.02	2.56	0.20916
99.03	0.16	0.2069
125.47	50.67	0.21899
125.49	40.68	0.21012
125.55	30.41	0.20033
125.53	20.41	0.18991
125.54	10.15	0.17824
125.61	5.08	0.17138
125.62	2.43	0.16803
150.23	50.74	0.19238
150.25	40.54	0.18284
150.28	30.44	0.17167
150.28	20.48	0.15954
150.28	10.13	0.1456
150.29	5.04	0.1374
150.3	2.62	0.13288
175.13	50.67	0.16652
175.14	40.58	0.15619
175.17	30.41	0.14443
175.15	20.41	0.13092
175.16	10.13	0.11406
175.15	5.13	0.10276
200.2	50.67	0.14531
200.2	40.41	0.13422
200.21	30.41	0.12205
200.22	20.28	0.10686
200.18	13.01	0.0928
200.18	10.17	0.08573
200.18	7.63	0.07828
200.1	5.11	0.04192
200.08	2.48	0.001813
200.08	0.28	0.000174
235.01	50.74	0.020786
235	40.54	0.019681
235	30.68	0.018228
234.99	20.28	0.015717
235	13.06	0.011882
234.98	10.1	0.008769
234.96	5.07	0.003294
234.95	2.49	0.001419
110.868	0.204	0.1846
111.002	1.1	0.18559
110.971	2.236	0.187
111.202	3.27	0.18806
111.024	4.269	0.18903
110.897	5.269	0.1901
111.038	6.337	0.19104
110.718	7.404	0.19255
110.952	8.645	0.19409
124.806	0.721	0.16441
124.985	1.755	0.1662
125.059	2.719	0.16739
125.034	3.822	0.16897
124.867	4.924	0.17041
125.196	5.957	0.17213
124.728	7.06	0.17344
124.784	8.369	0.1751
155.48	1.514	0.12211
155.251	2.306	0.12285
154.953	2.891	0.12547
155.192	3.374	0.12594
154.969	4.132	0.12752
155.034	4.924	0.12908
155.285	5.648	0.13018
154.726	6.302	0.13109
154.995	7.129	0.13264
154.598	7.887	0.13403
155.167	8.576	0.13551
180.336	3.753	0.08969
180.509	4.132	0.09115
180.132	4.58	0.09303
180.172	5.027	0.09396
180.255	5.578	0.09512
180.139	6.095	0.09701
180.058	6.784	0.09901
179.989	7.335	0.10049
179.905	8.231	0.10261
139.92	59.998	0.20488
140.07	59.998	0.2047
139.95	50.001	0.19645
139.97	50.001	0.19583
140.00	40.004	0.1873
140.01	40.004	0.18737
140.09	30.006	0.17687
140.00	30.006	0.1776
120.08	10.004	0.17956
120.01	10.004	0.17965
120.08	10.004	0.17974
119.90	20.002	0.19016
119.89	20.002	0.1908
120.04	29.999	0.19996
119.91	29.999	0.20032
119.94	40.004	0.20887
119.86	40.004	0.20933
121.01	50.001	0.21299
139.90	20.002	0.16686
139.93	20.002	0.16632
139.89	10.004	0.15405
139.89	10.004	0.1542
139.89	10.004	0.15385
139.92	4.999	0.14709
139.90	4.999	0.14719
139.95	2.496	0.14324
139.95	2.496	0.14339
159.93	2.496	0.11533
159.94	2.496	0.11508
159.90	20.002	0.14377
159.89	20.002	0.14374
159.96	29.999	0.15617
159.98	29.999	0.15582
159.98	10.004	0.12931
159.98	10.004	0.12916
159.98	4.999	0.12029
160.01	4.999	0.11994
160.04	2.496	0.11518
160.00	2.496	0.11493
160.00	40.004	0.16674
160.00	40.004	0.16664
160.00	49.994	0.17681
159.95	49.994	0.17698
159.98	59.998	0.18553
159.97	59.998	0.1858
160.05	69.996	0.1936
159.94	69.996	0.19417
179.96	69.996	0.17698
180.00	69.996	0.17706
179.91	59.998	0.16828
179.96	50.001	0.15837
179.92	40.004	0.14817
179.95	29.999	0.13653
180.00	20.002	0.12291
179.98	20.002	0.12279
179.98	9.997	0.106
179.98	9.997	0.10583
179.98	4.999	0.09392
179.99	4.999	0.09416
199.99	69.996	0.16118
200.01	59.998	0.15239
200.01	59.998	0.15244
200.01	50.001	0.14254
200.00	40.004	0.13159
199.99	29.999	0.11976
199.99	20.002	0.10491
200.00	10.004	0.08495
199.99	10.004	0.08465
199.99	4.999	0.04015
220.02	69.996	0.14779
220.00	69.996	0.14789
220.05	59.998	0.13911
220.01	50.001	0.12897
220.05	40.004	0.11807
220.11	29.999	0.10542
220.00	20.002	0.08967
220.03	9.997	0.06615
240.02	69.996	0.13742
240.06	59.998	0.12856
240.00	50.001	0.1183
240.00	40.004	0.10696
240.00	29.999	0.09438
240.06	20.002	0.07835
260.03	69.996	0.12814
260.00	59.998	0.1192
260.00	50.001	0.10925
260.03	40.004	0.09859
260.05	30.006	0.0862
300.18	69.996	0.11495
299.33	69.996	0.11572
300.07	69.996	0.11475
300.08	69.996	0.11455
300.00	59.998	0.106
300.01	59.998	0.10639
300.00	49.994	0.09709
300.03	49.994	0.09722
300.03	40.004	0.08659
300.05	40.004	0.08664
299.97	29.999	0.07499
299.97	29.999	0.07509
299.96	20.002	0.06081
300.04	20.002	0.06101
300.00	9.997	0.04304
299.93	9.997	0.04314
300.24	4.999	0.03513
299.66	4.999	0.03533
299.87	4.999	0.03573
300.00	4.999	0.03581
320.02	69.996	0.11032
320.07	69.996	0.11047
320.00	59.998	0.10151
319.95	59.998	0.10196
319.95	50.001	0.0928
319.94	50.001	0.0926
319.98	40.004	0.08305
319.98	40.004	0.0829
319.96	29.999	0.07275
319.98	29.999	0.07186
320.06	20.002	0.05919
320.04	20.002	0.05919
319.98	10.004	0.04492
320.00	10.004	0.04479
339.80	69.996	0.1066
339.96	10.004	0.04718
339.98	10.004	0.04767
340.00	10.004	0.04767
340.05	69.996	0.10605
340.02	69.996	0.10566
340.00	59.998	0.09853
340.02	59.998	0.09839
339.98	50.001	0.09013
339.96	40.004	0.08133
339.95	29.999	0.07126
340.23	20.002	0.05867
400.15	69.996	0.10224
400.07	59.998	0.09535
399.99	50.001	0.08789
399.95	40.004	0.07947
399.92	29.999	0.07129
399.88	20.002	0.06387
399.89	10.004	0.05403
379.92	69.996	0.10225
379.97	59.998	0.09598
379.98	50.001	0.08808
380.03	40.004	0.07998
379.97	40.004	0.07993
379.99	30.006	0.07116
380.09	20.002	0.06176
379.91	10.004	0.05297
359.90	69.996	0.10439
357.90	69.996	0.10454
359.89	59.998	0.09662
359.89	50.001	0.08934
359.90	40.004	0.08052
359.89	30.006	0.07068
359.91	20.002	0.06069
359.94	20.002	0.06069
359.94	10.011	0.05007
260.58	69.996	0.12947
260.51	59.998	0.11932
260.48	50.001	0.10935
260.53	40.004	0.09879
260.57	29.999	0.08661
260.71	20.009	0.07173
260.90	15.003	0.06045
261.15	20.009	0.07062
261.17	9.997	0.04618
261.69	4.999	0.03265
261.93	4.999	0.03245
277.15	69.996	0.12216
277.31	59.998	0.11322
277.43	49.994	0.10341
277.72	40.004	0.09336
277.98	29.999	0.08106
278.28	20.002	0.06516
278.52	15.003	0.05587
279.19	9.997	0.04447
279.51	5.006	0.03572
279.63	5.013	0.03572
279.99	9.997	0.04461